<Substance xmlns="http://hl7.org/fhir"><id value="fafee321-1a7e-4e7c-876a-debdfb0aaedf" /><meta><profile value="https://fhir.nhs.uk/StructureDefinition/dds-report-substance-1-0" /></meta><contained><Substance><id value="ingr1" /><code><coding><system value="http://snomed.info/sct" /><code value="372687004" /><display value="Amoxicillin" /></coding></code></Substance></contained><contained><Substance><id value="ingr2" /><code><coding><system value="http://snomed.info/sct" /><code value="395938000" /><display value="Clavulanate potassium" /></coding></code></Substance></contained><identifier><use value="official" /><type><text value="Identifier allocated by manufacturing pharmaceutical company." /></type><system value="http://www.pharm.com/Id/substance-id" /><value value="aeb22d1d-0dbf-426c-b86c-3f47dca4a4e8" /><assigner><reference value="urn:uuid:0A6F71A7-161D-4A84-8573-AB55DBB19340" /><display value="Pharm Pharmaceuticals Limited" /></assigner></identifier><category><coding><system value="http://hl7.org.fhir/substance-category" /><code value="drug" /><display value="Drug or Medicament" /></coding></category><code><coding><system value="http://snomed.info/sct" /><code value="392259005" /><display value="co-amoxiclav 875mg/125mg tablet" /></coding></code><description value="Augmentin 875" /><instance><identifier><use value="official" /><type><text value="Identifier for the package containing the tablets allocated by manufacturing pharmaceutical company." /></type><system value="http://www.pharm.com/Id/package-id" /><value value="d8bf142a-525e-4107-bb4d-67516df492da" /><assigner><reference value="urn:uuid:0A6F71A7-161D-4A84-8573-AB55DBB19340" /><display value="Pharm Pharmaceuticals Limited" /></assigner></identifier><expiry value="2017-05-10" /></instance><ingredient><quantity><numerator><value value="875" /><unit value="milligram" /><system value="http://unitsofmeasure.org" /><code value="mg" /></numerator><denominator><value value="1000" /><unit value="milligram" /><system value="http://unitsofmeasure.org" /><code value="mg" /></denominator></quantity><substance><reference value="#ingr1" /></substance></ingredient><ingredient><quantity><numerator><value value="125" /><unit value="milligram" /><system value="http://unitsofmeasure.org" /><code value="mg" /></numerator><denominator><value value="1000" /><unit value="milligram" /><system value="http://unitsofmeasure.org" /><code value="mg" /></denominator></quantity><substance><reference value="#ingr2" /></substance></ingredient></Substance>